File: output/DSC.csv
,Step,Time,Unsubtracted HeatFlow,Baseline HeatFlow,Program Temperature,Sample Temperature,Approx. GasFlow
0,1,0.0,16.8549,0.0,110.0,94.633,0.0
6,1,0.1,-211.411,0.0,110.0,106.029,0.0
12,1,0.2,-313.969,0.0,110.0,107.388,0.0
18,1,0.3,-335.648,0.0,110.0,107.581,0.0
24,1,0.4,-338.867,0.0,110.0,107.614,0.0
30,1,0.5,-339.354,0.0,110.0,107.621,0.0
36,1,0.6,-339.424,0.0,110.0,107.625,0.0
42,1,0.7,-339.426,0.0,110.0,107.627,0.0
48,1,0.8,-339.419,0.0,110.0,107.628,0.0
54,1,0.9,-339.409,0.0,110.0,107.629,0.0
60,1,1.0,-339.403,0.0,110.0,107.63,0.0
66,1,1.1,-339.399,0.0,110.0,107.634,0.0
72,1,1.2,-339.394,0.0,110.0,107.634,0.0
78,1,1.3,-339.39,0.0,110.0,107.636,0.0
84,1,1.4,-339.385,0.0,110.0,107.637,0.0
90,1,1.5,-339.385,0.0,110.0,107.637,0.0
96,1,1.6,-339.379,0.0,110.0,107.638,0.0
102,1,1.7,-339.376,0.0,110.0,107.639,0.0
108,1,1.8,-339.371,0.0,110.0,107.639,0.0
114,1,1.9,-339.374,0.0,110.0,107.639,0.0
120,2,2.0,-339.425,0.0,109.995,107.639,0.0
126,2,2.1,-341.711,0.102179,108.995,107.283,0.0
132,2,2.2,-345.246,1.190037,107.995,106.374,0.0
138,2,2.3,-345.985,1.417166,106.995,105.38,0.0
144,2,2.4,-345.975,1.591672,105.995,104.371,0.0
150,2,2.5,-345.828,1.763582,104.995,103.364,0.0
156,2,2.6,-345.657,1.9362,103.995,102.355,0.0
162,2,2.7,-345.488,2.102683,102.995,101.346,0.0
168,2,2.8,-345.316,2.269991,101.995,100.337,0.0
174,2,2.9,-345.146,2.440603,100.995,99.327,0.0
180,2,3.0,-344.972,2.609328,99.995,98.316,0.0
186,2,3.1,-344.795,2.773568,98.995,97.308,0.0
192,2,3.2,-344.634,2.947012,97.995,96.299,0.0
198,2,3.3,-344.465,3.11786,96.995,95.29,0.0
204,2,3.4,-344.288,3.280685,95.995,94.279,0.0
210,2,3.5,-344.12,3.446932,94.995,93.27,0.0
216,2,3.6,-343.959,3.613768,93.995,92.259,0.0
222,2,3.7,-343.795,3.780133,92.995,91.248,0.0
228,2,3.8,-343.627,3.943076,91.995,90.238,0.0
234,2,3.9,-343.47,4.107906,90.995,89.223,0.0
240,2,4.0,-343.312,4.277457,89.995,88.211,0.0
246,2,4.1,-343.154,4.434972,88.995,87.201,0.0
252,2,4.2,-342.987,4.598387,87.995,86.191,0.0
258,2,4.3,-342.824,4.752008,86.995,85.181,0.0
264,2,4.4,-342.671,4.906574,85.995,84.171,0.0
270,2,4.5,-342.521,5.067039,84.995,83.159,0.0
276,2,4.6,-342.368,5.224673,83.995,82.147,0.0
282,2,4.7,-342.211,5.382306,82.995,81.135,0.0
288,2,4.8,-342.06,5.543715,81.995,80.124,0.0
294,2,4.9,-341.911,5.698753,80.995,79.113,0.0
300,2,5.0,-341.764,5.859454,79.995,78.103,0.0
306,2,5.1,-341.611,6.014845,78.995,77.091,0.0
312,2,5.2,-341.469,6.174248,77.995,76.081,0.0
318,2,5.3,-341.332,6.32492,76.995,75.069,0.0
324,2,5.4,-341.196,6.483616,75.995,74.057,0.0
330,2,5.5,-341.065,6.638653,74.995,73.044,0.0
336,2,5.6,-340.939,6.794045,73.995,72.032,0.0
342,2,5.7,-340.827,6.946487,72.995,71.02,0.0
348,2,5.8,-340.73,7.102232,71.995,70.005,0.0
354,2,5.9,-340.646,7.255264,70.995,68.992,0.0
360,2,6.0,-340.598,7.40629,69.995,67.982,0.0
366,2,6.1,-340.59,7.559558,68.995,66.972,0.0
372,2,6.2,-340.651,7.714359,67.995,65.96,0.0
378,2,6.3,-340.771,7.865975,66.995,64.948,0.0
384,2,6.4,-340.962,8.011102,65.995,63.935,0.0
390,2,6.5,-341.225,8.166965,64.995,62.924,0.0
396,2,6.6,-341.548,8.31398,63.995,61.911,0.0
402,2,6.7,-341.922,8.466185,62.995,60.902,0.0
408,2,6.8,-342.321,8.611902,61.995,59.892,0.0
414,2,6.9,-342.752,8.76045,60.995,58.884,0.0
420,2,7.0,-343.2945,8.90947,59.995,57.874,0.0
426,2,7.1,-343.916,9.056839,58.995,56.863,0.0
432,2,7.2,-344.138,9.203499,57.995,55.852,0.0
438,2,7.3,-344.003,9.348035,56.995,54.84,0.0
444,2,7.4,-343.811,9.496112,55.995,53.827,0.0
450,2,7.5,-343.669,9.641828,54.995,52.815,0.0
456,2,7.6,-343.587,9.783887,53.995,51.805,0.0
462,2,7.7,-343.574,9.927008,52.995,50.79,0.0
468,2,7.8,-343.617,10.07119,51.995,49.782,0.0
474,2,7.9,-343.742,10.2138,50.995,48.771,0.0
480,2,8.0,-343.998,10.358,49.995,47.763,0.0
486,2,8.1,-344.417,10.4974,48.995,46.753,0.0
492,2,8.2,-344.979,10.6378,47.995,45.746,0.0
498,2,8.3,-345.605,10.7792,46.995,44.737,0.0
504,2,8.4,-346.267,10.9209,45.995,43.727,0.0
510,2,8.5,-346.938,11.0569,44.995,42.72,0.0
516,2,8.6,-347.6,11.1949,43.995,41.715,0.0
522,2,8.7,-348.276,11.3349,42.995,40.709,0.0
528,2,8.8,-349.005,11.4685,41.995,39.704,0.0
534,2,8.9,-349.831,11.6111,40.995,38.7,0.0
540,2,9.0,-350.845,11.7452,39.995,37.696,0.0
546,2,9.1,-352.098,11.8837,38.995,36.692,0.0
552,2,9.2,-353.588,12.0155,37.995,35.688,0.0
558,2,9.3,-355.062,12.1523,36.995,34.686,0.0
564,2,9.4,-355.883,12.2841,35.995,33.685,0.0
570,2,9.5,-355.052,12.4183,34.995,32.68,0.0
576,2,9.6,-351.964,12.5499,33.995,31.669,0.0
582,2,9.7,-348.057,12.6855,32.995,30.657,0.0
588,2,9.8,-344.874,12.8155,31.995,29.644,0.0
594,2,9.9,-342.506,12.9458,30.995,28.634,0.0
600,2,10.0,-340.715,13.074,29.995,27.627,0.0
606,2,10.1,-339.343,13.2053,28.995,26.618,0.0
612,2,10.2,-338.252,13.333,27.995,25.612,0.0
618,2,10.3,-337.383,13.4603,26.995,24.608,0.0
624,2,10.4,-336.669,13.5921,25.995,23.606,0.0
630,2,10.5,-336.074,13.7188,24.995,22.602,0.0
636,2,10.6,-335.571,13.847,23.995,21.601,0.0
642,2,10.7,-335.122,13.9832,22.995,20.6,0.0
648,2,10.8,-334.723,14.0873,21.995,19.603,0.0
654,2,10.9,-334.406,14.2187,20.995,18.604,0.0
660,2,11.0,-334.129,14.3484,19.995,17.603,0.0
666,2,11.1,-333.871,14.4712,18.995,16.602,0.0
672,2,11.2,-333.632,14.5975,17.995,15.601,0.0
678,2,11.3,-333.411,14.722,16.995,14.603,0.0
684,2,11.4,-333.199,14.8448,15.995,13.605,0.0
690,2,11.5,-332.997,14.9667,14.995,12.603,0.0
696,2,11.6,-332.805,15.0874,13.995,11.605,0.0
702,2,11.7,-332.616,15.2093,12.995,10.608,0.0
708,2,11.8,-332.436,15.3304,11.995,9.609,0.0
714,2,11.9,-332.253,15.4489,10.995,8.609,0.0
720,2,12.0,-332.08,15.5698,9.995,7.611,0.0
726,2,12.1,-331.908,15.6899,8.995,6.614,0.0
732,2,12.2,-331.741,15.8089,7.995,5.619,0.0
738,2,12.3,-331.574,15.92439,6.995,4.624,0.0
744,2,12.4,-331.416,16.0437,5.995,3.629,0.0
750,2,12.5,-331.26,16.1595,4.995,2.634,0.0
756,2,12.6,-331.111,16.278,3.995,1.639,0.0
762,2,12.7,-330.964,16.3943,2.995,0.645,0.0
768,2,12.8,-330.818,16.5081,1.995,-0.351,0.0
774,2,12.9,-330.673,16.6255,0.995,-1.346,0.0
780,2,13.0,-330.535,16.7389,-0.005,-2.339,0.0
786,2,13.1,-330.396,16.854,-1.005,-3.329,0.0
792,2,13.2,-330.256,16.9647,-2.005,-4.321,0.0
798,2,13.3,-330.117,17.0796,-3.005,-5.311,0.0
804,2,13.4,-329.986,17.1899,-4.005,-6.306,0.0
810,2,13.5,-329.855,17.3011,-5.005,-7.297,0.0
816,2,13.6,-329.723,17.4111,-6.005,-8.288,0.0
822,2,13.7,-329.594,17.51972,-7.005,-9.28,0.0
828,2,13.8,-329.467,17.628,-8.005,-10.268,0.0
834,2,13.9,-329.34,17.7365,-9.005,-11.258,0.0
840,3,14.0,-329.16,17.8239,-10.0,-12.244,0.0
846,3,14.1,-327.357,17.8239,-10.0,-12.963,0.0
852,3,14.2,-324.348,17.8239,-10.0,-13.15,0.0
858,3,14.3,-322.957,17.8239,-10.0,-13.193,0.0
864,3,14.4,-322.536,17.8239,-10.0,-13.203,0.0
870,3,14.5,-322.423,17.8239,-10.0,-13.205,0.0
876,3,14.6,-322.393,17.8239,-10.0,-13.205,0.0
882,3,14.7,-322.386,17.8239,-10.0,-13.205,0.0
888,3,14.8,-322.383,17.8239,-10.0,-13.206,0.0
894,3,14.9,-322.384,17.8239,-10.0,-13.207,0.0
900,3,15.0,-322.38,17.8239,-10.0,-13.208,0.0
906,3,15.1,-322.383,17.8239,-10.0,-13.207,0.0
912,3,15.2,-322.383,17.8239,-10.0,-13.209,0.0
918,3,15.3,-322.383,17.8239,-10.0,-13.209,0.0
924,3,15.4,-322.381,17.8239,-10.0,-13.208,0.0
930,3,15.5,-322.384,17.8239,-10.0,-13.21,0.0
936,3,15.6,-322.384,17.8239,-10.0,-13.21,0.0
942,3,15.7,-322.383,17.8239,-10.0,-13.21,0.0
948,3,15.8,-322.381,17.8239,-10.0,-13.21,0.0
954,3,15.9,-322.384,17.8239,-10.0,-13.211,0.0
960,4,16.0,-322.325,17.8239,-9.996,-13.21,0.0
966,4,16.1,-320.354,18.3833,-8.996,-12.911,0.0
972,4,16.2,-317.396,17.0768,-7.996,-12.073,0.0
978,4,16.3,-316.168,16.7426,-6.996,-11.11,0.0
984,4,16.4,-315.905,16.6028,-5.996,-10.119,0.0
990,4,16.5,-315.92,16.4876,-4.996,-9.126,0.0
996,4,16.6,-316.001,16.3723,-3.996,-8.129,0.0
1002,4,16.7,-316.098,16.2562,-2.996,-7.133,0.0
1008,4,16.8,-316.204,16.1364,-1.996,-6.137,0.0
1014,4,16.9,-316.306,16.021,-0.996,-5.139,0.0
1020,4,17.0,-316.408,15.9053,0.004,-4.143,0.0
1026,4,17.1,-316.512,15.7901,1.004,-3.147,0.0
1032,4,17.2,-316.615,15.6759,2.004,-2.149,0.0
1038,4,17.3,-316.72,15.5633,3.004,-1.15,0.0
1044,4,17.4,-316.823,15.4454,4.004,-0.149,0.0
1050,4,17.5,-316.927,15.3293,5.004,0.85,0.0
1056,4,17.6,-317.031,15.2123,6.004,1.849,0.0
1062,4,17.7,-317.14,15.0952,7.004,2.849,0.0
1068,4,17.8,-317.247,14.9762,8.004,3.849,0.0
1074,4,17.9,-317.356,14.8568,9.004,4.849,0.0
1080,4,18.0,-317.463,14.7378,10.004,5.848,0.0
1086,4,18.1,-317.569,14.6221,11.004,6.848,0.0
1092,4,18.2,-317.677,14.4992,12.004,7.849,0.0
1098,4,18.3,-317.787,14.38133,13.004,8.85,0.0
1104,4,18.4,-317.89,14.2571,14.004,9.855,0.0
1110,4,18.5,-318.001,14.137,15.004,10.856,0.0
1116,4,18.6,-318.111,14.013,16.004,11.859,0.0
1122,4,18.7,-318.218,13.8914,17.004,12.86,0.0
1128,4,18.8,-318.329,13.7681,18.004,13.863,0.0
1134,4,18.9,-318.44,13.6435,19.004,14.866,0.0
1140,4,19.0,-318.55,13.5207,20.004,15.87,0.0
1146,4,19.1,-318.661,13.3966,21.004,16.874,0.0
1152,4,19.2,-318.776,13.269,22.004,17.879,0.0
1158,4,19.3,-318.904,13.1309,23.004,18.883,0.0
1164,4,19.4,-319.033,13.0243,24.004,19.882,0.0
1170,4,19.5,-319.138,12.8953,25.004,20.884,0.0
1176,4,19.6,-319.237,12.76547,26.004,21.886,0.0
1182,4,19.7,-319.344,12.6365,27.004,22.891,0.0
1188,4,19.8,-319.456,12.5075,28.004,23.895,0.0
1194,4,19.9,-319.573,12.376,29.004,24.899,0.0
1200,4,20.0,-319.689,12.2479,30.004,25.906,0.0
1206,4,20.1,-319.804,12.1122,31.004,26.914,0.0
1212,4,20.2,-319.92,11.9833,32.004,27.919,0.0
1218,4,20.3,-320.036,11.8527,33.004,28.926,0.0
1224,4,20.4,-320.153,11.7191,34.004,29.933,0.0
1230,4,20.5,-320.266,11.5879,35.004,30.94,0.0
1236,4,20.6,-320.384,11.4561,36.004,31.946,0.0
1242,4,20.7,-320.499,11.3234,37.004,32.952,0.0
1248,4,20.8,-320.614,11.187,38.004,33.962,0.0
1254,4,20.9,-320.727,11.0536,39.004,34.973,0.0
1260,4,21.0,-320.844,10.91611,40.004,35.984,0.0
1266,4,21.1,-320.954,10.7789,41.004,36.993,0.0
1272,4,21.2,-321.07,10.645,42.004,38.003,0.0
1278,4,21.3,-321.182,10.50716,43.004,39.013,0.0
1284,4,21.4,-321.295,10.3685,44.004,40.023,0.0
1290,4,21.5,-321.397,10.2321,45.004,41.034,0.0
1296,4,21.6,-321.501,10.0857,46.004,42.043,0.0
1302,4,21.7,-321.599,9.944234,47.004,43.054,0.0
1308,4,21.8,-321.695,9.798636,48.004,44.064,0.0
1314,4,21.9,-321.782,9.654807,49.004,45.077,0.0
1320,4,22.0,-321.859,9.51263,50.004,46.091,0.0
1326,4,22.1,-321.926,9.369981,51.004,47.102,0.0
1332,4,22.2,-321.964,9.225563,52.004,48.115,0.0
1338,4,22.3,-321.976,9.083858,53.004,49.128,0.0
1344,4,22.4,-321.95,8.93472,54.004,50.141,0.0
1350,4,22.5,-321.871,8.789357,55.004,51.153,0.0
1356,4,22.6,-321.72,8.643877,56.004,52.165,0.0
1362,4,22.7,-321.481,8.494149,57.004,53.179,0.0
1368,4,22.8,-321.099,8.349376,58.004,54.195,0.0
1374,4,22.9,-320.539,8.202008,59.004,55.208,0.0
1380,4,23.0,-319.721,8.055702,60.004,56.22,0.0
1386,4,23.1,-318.558,7.903024,61.004,57.233,0.0
1392,4,23.2,-316.984,7.753296,62.004,58.245,0.0
1398,4,23.3,-314.982,7.605455,63.004,59.254,0.0
1404,4,23.4,-312.661,7.455019,64.004,60.261,0.0
1410,4,23.5,-310.243,7.30128,65.004,61.269,0.0
1416,4,23.6,-308.1,7.152731,66.004,62.278,0.0
1422,4,23.7,-306.587,7.001705,67.004,63.291,0.0
1428,4,23.8,-306.009,6.848556,68.004,64.305,0.0
1434,4,23.9,-306.45,6.694344,69.004,65.318,0.0
1440,4,24.0,-307.731,6.540014,70.004,66.335,0.0
1446,4,24.1,-309.458,6.383325,71.004,67.351,0.0
1452,4,24.2,-311.19,6.230293,72.004,68.368,0.0
1458,4,24.3,-312.649,6.074784,73.004,69.383,0.0
1464,4,24.4,-313.738,5.918684,74.004,70.398,0.0
1470,4,24.5,-314.477,5.761287,75.004,71.415,0.0
1476,4,24.6,-314.928,5.608137,76.004,72.431,0.0
1482,4,24.7,-315.174,5.447672,77.004,73.447,0.0
1488,4,24.8,-315.316,5.289449,78.004,74.46,0.0
1494,4,24.9,-315.518,5.131579,79.004,75.476,0.0
1500,4,25.0,-315.913,4.97076,80.004,76.491,0.0
1506,4,25.1,-316.601,4.814543,81.004,77.502,0.0
1512,4,25.2,-317.554,4.652544,82.004,78.517,0.0
1518,4,25.3,-318.677,4.490545,83.004,79.531,0.0
1524,4,25.4,-319.811,4.332793,84.004,80.546,0.0
1530,4,25.5,-320.825,4.171502,85.004,81.563,0.0
1536,4,25.6,-321.667,4.010211,86.004,82.578,0.0
1542,4,25.7,-322.352,3.847858,87.004,83.592,0.0
1548,4,25.8,-322.92,3.686214,88.004,84.606,0.0
1554,4,25.9,-323.421,3.520793,89.004,85.619,0.0
1560,4,26.0,-323.859,3.359502,90.004,86.632,0.0
1566,4,26.1,-324.277,3.193727,91.004,87.644,0.0
1572,4,26.2,-324.703,3.028425,92.004,88.658,0.0
1578,4,26.3,-325.193,2.861588,93.004,89.672,0.0
1584,4,26.4,-325.753,2.696403,94.004,90.685,0.0
1590,4,26.5,-326.356,2.529449,95.004,91.7,0.0
1596,4,26.6,-326.999,2.364972,96.004,92.716,0.0
1602,4,26.7,-327.643,2.198254,97.004,93.729,0.0
1608,4,26.8,-328.257,2.032597,98.004,94.741,0.0
1614,4,26.9,-328.814,1.867766,99.004,95.752,0.0
1620,4,27.0,-329.287,1.697036,100.004,96.763,0.0
1626,4,27.1,-329.673,1.52548,101.004,97.775,0.0
1632,4,27.2,-329.988,1.352744,102.004,98.786,0.0
1638,4,27.3,-330.255,1.184846,103.004,99.798,0.0
1644,4,27.4,-330.501,1.014824,104.004,100.81,0.0
1650,4,27.5,-330.724,0.839492,105.004,101.822,0.0
1656,4,27.6,-330.936,0.673835,106.004,102.833,0.0
1662,4,27.7,-331.136,0.501335,107.004,103.843,0.0
1668,4,27.8,-331.326,0.330487,108.004,104.855,0.0
1674,4,27.9,-331.517,0.154212,109.004,105.865,0.0
1680,5,28.0,-331.767,0.010383,110.0,106.876,0.0
1686,5,28.1,-334.442,0.010383,110.0,107.519,0.0
1692,5,28.2,-338.202,0.010383,110.0,107.611,0.0
1698,5,28.3,-339.11,0.010383,110.0,107.623,0.0
1704,5,28.4,-339.261,0.010383,110.0,107.624,0.0
1710,5,28.5,-339.291,0.010383,110.0,107.625,0.0
1716,5,28.6,-339.291,0.010383,110.0,107.625,0.0
1722,5,28.7,-339.294,0.010383,110.0,107.625,0.0
1728,5,28.8,-339.295,0.010383,110.0,107.625,0.0
1734,5,28.9,-339.29,0.010383,110.0,107.626,0.0
1740,5,29.0,-339.289,0.010383,110.0,107.626,0.0
1746,5,29.1,-339.292,0.010383,110.0,107.627,0.0
1752,5,29.2,-339.284,0.010383,110.0,107.627,0.0
1758,5,29.3,-339.291,0.010383,110.0,107.627,0.0
1764,5,29.4,-339.287,0.010383,110.0,107.626,0.0
1770,5,29.5,-339.288,0.010383,110.0,107.628,0.0
1776,5,29.6,-339.288,0.010383,110.0,107.627,0.0
1782,5,29.7,-339.281,0.010383,110.0,107.628,0.0
1788,5,29.8,-339.283,0.010383,110.0,107.628,0.0
1794,5,29.9,-339.284,0.010383,110.0,107.627,0.0
1800,6,30.0,-339.314,0.010383,109.995,107.627,0.0
1806,6,30.1,-340.474,0.054865,109.495,107.449,0.0
1812,6,30.2,-342.237,0.605756,108.995,106.994,0.0
1818,6,30.3,-342.608,0.718317,108.495,106.496,0.0
1824,6,30.4,-342.599,0.806927,107.995,105.993,0.0
1830,6,30.5,-342.531,0.893295,107.495,105.489,0.0
1836,6,30.6,-342.449,0.978483,106.995,104.985,0.0
1842,6,30.7,-342.36,1.060014,106.495,104.479,0.0
1848,6,30.8,-342.273,1.147679,105.995,103.974,0.0
1854,6,30.9,-342.185,1.233339,105.495,103.469,0.0
1860,6,31.0,-342.102,1.317348,104.995,102.965,0.0
1866,6,31.1,-342.016,1.40112,104.495,102.461,0.0
1872,6,31.2,-341.933,1.485836,103.995,101.956,0.0
1878,6,31.3,-341.854,1.570906,103.495,101.451,0.0
1884,6,31.4,-341.759,1.657864,102.995,100.946,0.0
1890,6,31.5,-341.679,1.737271,102.495,100.441,0.0
1896,6,31.6,-341.594,1.820335,101.995,99.936,0.0
1902,6,31.7,-341.511,1.903517,101.495,99.43,0.0
1908,6,31.8,-341.428,1.990829,100.995,98.924,0.0
1914,6,31.9,-341.342,2.070472,100.495,98.418,0.0
1920,6,32.0,-341.254,2.15625,99.995,97.914,0.0
1926,6,32.1,-341.176,2.243562,99.495,97.41,0.0
1932,6,32.2,-341.086,2.326036,98.995,96.904,0.0
1938,6,32.3,-341.002,2.411578,98.495,96.398,0.0
1944,6,32.4,-340.92,2.495114,97.995,95.893,0.0
1950,6,32.5,-340.842,2.574285,97.495,95.388,0.0
1956,6,32.6,-340.749,2.661951,96.995,94.883,0.0
1962,6,32.7,-340.66,2.746549,96.495,94.378,0.0
1968,6,32.8,-340.586,2.828079,95.995,93.872,0.0
1974,6,32.9,-340.496,2.908312,95.495,93.368,0.0
1980,6,33.0,-340.417,2.991612,94.995,92.864,0.0
1986,6,33.1,-340.338,3.073614,94.495,92.357,0.0
1992,6,33.2,-340.256,3.155971,93.995,91.852,0.0
1998,6,33.3,-340.173,3.241749,93.495,91.346,0.0
2004,6,33.4,-340.087,3.323987,92.995,90.839,0.0
2010,6,33.5,-340.005,3.404928,92.495,90.335,0.0
2016,6,33.6,-339.924,3.4887,91.995,89.828,0.0
2022,6,33.7,-339.843,3.571174,91.495,89.321,0.0
2028,6,33.8,-339.773,3.65943,90.995,88.815,0.0
2034,6,33.9,-339.685,3.739899,90.495,88.307,0.0
2040,6,34.0,-339.604,3.821311,89.995,87.803,0.0
2046,6,34.1,-339.523,3.899184,89.495,87.298,0.0
2052,6,34.2,-339.436,3.98213,88.995,86.792,0.0
2058,6,34.3,-339.357,4.063778,88.495,86.288,0.0
2064,6,34.4,-339.271,4.140943,87.995,85.781,0.0
2070,6,34.5,-339.196,4.224126,87.495,85.277,0.0
2076,6,34.6,-339.114,4.311201,86.995,84.772,0.0
2082,6,34.7,-339.035,4.387186,86.495,84.265,0.0
2088,6,34.8,-338.953,4.463171,85.995,83.76,0.0
2094,6,34.9,-338.875,4.549303,85.495,83.254,0.0
2100,6,35.0,-338.801,4.632132,84.995,82.748,0.0
2106,6,35.1,-338.718,4.712128,84.495,82.242,0.0
2112,6,35.2,-338.636,4.788821,83.995,81.735,0.0
2118,6,35.3,-338.555,4.870351,83.495,81.23,0.0
2124,6,35.4,-338.478,4.95259,82.995,80.723,0.0
2130,6,35.5,-338.398,5.030345,82.495,80.217,0.0
2136,6,35.6,-338.32,5.106802,81.995,79.711,0.0
2142,6,35.7,-338.247,5.193052,81.495,79.204,0.0
2148,6,35.8,-338.171,5.268329,80.995,78.699,0.0
2154,6,35.9,-338.096,5.351157,80.495,78.192,0.0
2160,6,36.0,-338.016,5.427968,79.995,77.685,0.0
2166,6,36.1,-337.942,5.502065,79.495,77.178,0.0
2172,6,36.2,-337.865,5.584421,78.995,76.672,0.0
2178,6,36.3,-337.793,5.66017,78.495,76.166,0.0
2184,6,36.4,-337.717,5.741583,77.995,75.66,0.0
2190,6,36.5,-337.642,5.817096,77.495,75.153,0.0
2196,6,36.6,-337.571,5.896502,76.995,74.649,0.0
2202,6,36.7,-337.5,5.971071,76.495,74.142,0.0
2208,6,36.8,-337.432,6.051068,75.995,73.634,0.0
2214,6,36.9,-337.359,6.128115,75.495,73.129,0.0
2220,6,37.0,-337.289,6.202212,74.995,72.623,0.0
2226,6,37.1,-337.223,6.281382,74.495,72.116,0.0
2232,6,37.2,-337.162,6.356659,73.995,71.61,0.0
2238,6,37.3,-337.095,6.432762,73.495,71.102,0.0
2244,6,37.4,-337.03,6.508157,72.995,70.595,0.0
2250,6,37.5,-336.97,6.587918,72.495,70.09,0.0
2256,6,37.6,-336.909,6.663195,71.995,69.584,0.0
2262,6,37.7,-336.854,6.739298,71.495,69.077,0.0
2268,6,37.8,-336.8,6.811743,70.995,68.572,0.0
2274,6,37.9,-336.751,6.888908,70.495,68.067,0.0
2280,6,38.0,-336.705,6.967607,69.995,67.561,0.0
2286,6,38.1,-336.663,7.03781,69.495,67.056,0.0
2292,6,38.2,-336.631,7.114503,68.995,66.549,0.0
2298,6,38.3,-336.605,7.189072,68.495,66.043,0.0
2304,6,38.4,-336.59,7.268243,67.995,65.536,0.0
2310,6,38.5,-336.575,7.340924,67.495,65.03,0.0
2316,6,38.6,-336.575,7.414313,66.995,64.523,0.0
2322,6,38.7,-336.581,7.495018,66.495,64.016,0.0
2328,6,38.8,-336.601,7.567699,65.995,63.509,0.0
2334,6,38.9,-336.628,7.643448,65.495,63.003,0.0
2340,6,39.0,-336.667,7.721439,64.995,62.498,0.0
2346,6,39.1,-336.716,7.79766,64.495,61.99,0.0
2352,6,39.2,-336.775,7.870459,63.995,61.483,0.0
2358,6,39.3,-336.837,7.941724,63.495,60.978,0.0
2364,6,39.4,-336.91,8.016411,62.995,60.473,0.0
2370,6,39.5,-336.984,8.087677,62.495,59.967,0.0
2376,6,39.6,-337.071,8.16319,61.995,59.462,0.0
2382,6,39.7,-337.171,8.238231,61.495,58.957,0.0
2388,6,39.8,-337.295,8.30985,60.995,58.449,0.0
2394,6,39.9,-337.441,8.382767,60.495,57.943,0.0
2400,6,40.0,-337.591,8.455094,59.995,57.436,0.0
2406,6,40.1,-337.674,8.531197,59.495,56.931,0.0
2412,6,40.2,-337.667,8.604233,58.995,56.424,0.0
2418,6,40.3,-337.6,8.6801,58.495,55.919,0.0
2424,6,40.4,-337.514,8.754669,57.995,55.412,0.0
2430,6,40.5,-337.434,8.82558,57.495,54.905,0.0
2436,6,40.6,-337.356,8.897199,56.995,54.399,0.0
2442,6,40.7,-337.281,8.969055,56.495,53.895,0.0
2448,6,40.8,-337.216,9.042562,55.995,53.386,0.0
2454,6,40.9,-337.163,9.110524,55.495,52.88,0.0
2460,6,41.0,-337.115,9.185093,54.995,52.373,0.0
2466,6,41.1,-337.072,9.25624,54.495,51.866,0.0
2472,6,41.2,-337.037,9.328685,53.995,51.36,0.0
2478,6,41.3,-337.005,9.399833,53.495,50.855,0.0
2484,6,41.4,-336.982,9.472868,52.995,50.35,0.0
2490,6,41.5,-336.967,9.543307,52.495,49.845,0.0
2496,6,41.6,-336.96,9.610915,51.995,49.34,0.0
2502,6,41.7,-336.966,9.687136,51.495,48.834,0.0
2508,6,41.8,-336.991,9.75557,50.995,48.33,0.0
2514,6,41.9,-337.033,9.829195,50.495,47.823,0.0
2520,6,42.0,-337.096,9.899516,49.995,47.318,0.0
2526,6,42.1,-337.181,9.971372,49.495,46.813,0.0
2532,6,42.2,-337.284,10.0402,48.995,46.308,0.0
2538,6,42.3,-337.401,10.1118,48.495,45.803,0.0
2544,6,42.4,-337.522,10.181,47.995,45.297,0.0
2550,6,42.5,-337.647,10.2491,47.495,44.792,0.0
2556,6,42.6,-337.778,10.3184,46.995,44.287,0.0
2562,6,42.7,-337.912,10.3891,46.495,43.783,0.0
2568,6,42.8,-338.041,10.4554,45.995,43.277,0.0
2574,6,42.9,-338.173,10.5239,45.495,42.771,0.0
2580,6,43.0,-338.303,10.5961,44.995,42.27,0.0
2586,6,43.1,-338.441,10.666,44.495,41.765,0.0
2592,6,43.2,-338.585,10.7349,43.995,41.263,0.0
2598,6,43.3,-338.735,10.8032,43.495,40.759,0.0
2604,6,43.4,-338.899,10.8734,42.995,40.255,0.0
2610,6,43.5,-339.077,10.9437,42.495,39.752,0.0
2616,6,43.6,-339.28,11.0118,41.995,39.245,0.0
2622,6,43.7,-339.51,11.0822,41.495,38.741,0.0
2628,6,43.8,-339.768,11.1464,40.995,38.237,0.0
2634,6,43.9,-340.063,11.2139,40.495,37.733,0.0
2640,6,44.0,-340.405,11.2819,39.995,37.23,0.0
2646,6,44.1,-340.785,11.3494,39.495,36.727,0.0
2652,6,44.2,-341.191,11.4163,38.995,36.225,0.0
2658,6,44.3,-341.599,11.4825,38.495,35.722,0.0
2664,6,44.4,-341.979,11.5502,37.995,35.219,0.0
2670,6,44.5,-342.262,11.6158,37.495,34.716,0.0
2676,6,44.6,-342.364,11.686,36.995,34.211,0.0
2682,6,44.7,-342.194,11.7496,36.495,33.71,0.0
2688,6,44.8,-341.689,11.8165,35.995,33.207,0.0
2694,6,44.9,-340.839,11.884,35.495,32.702,0.0
2700,6,45.0,-339.774,11.9506,34.995,32.198,0.0
2706,6,45.1,-338.689,12.0171,34.495,31.694,0.0
2712,6,45.2,-337.735,12.0847,33.995,31.19,0.0
2718,6,45.3,-336.946,12.1512,33.495,30.684,0.0
2724,6,45.4,-336.282,12.2199,32.995,30.181,0.0
2730,6,45.5,-335.702,12.2822,32.495,29.676,0.0
2736,6,45.6,-335.184,12.346,31.995,29.173,0.0
2742,6,45.7,-334.718,12.4114,31.495,28.669,0.0
2748,6,45.8,-334.292,12.4785,30.995,28.166,0.0
2754,6,45.9,-333.897,12.5418,30.495,27.662,0.0
2760,6,46.0,-333.543,12.6037,29.995,27.16,0.0
2766,6,46.1,-333.216,12.6692,29.495,26.656,0.0
2772,6,46.2,-332.917,12.7337,28.995,26.153,0.0
2778,6,46.3,-332.637,12.797,28.495,25.65,0.0
2784,6,46.4,-332.386,12.8642,27.995,25.147,0.0
2790,6,46.5,-332.15,12.9282,27.495,24.646,0.0
2796,6,46.6,-331.935,12.9924,26.995,24.144,0.0
2802,6,46.7,-331.731,13.0558,26.495,23.642,0.0
2808,6,46.8,-331.545,13.1206,25.995,23.14,0.0
2814,6,46.9,-331.37,13.1843,25.495,22.639,0.0
2820,6,47.0,-331.204,13.2513,24.995,22.136,0.0
2826,6,47.1,-331.051,13.312,24.495,21.636,0.0
2832,6,47.2,-330.903,13.3743,23.995,21.135,0.0
2838,6,47.3,-330.771,13.4366,23.495,20.632,0.0
2844,6,47.4,-330.625,13.5116,22.995,20.131,0.0
2850,6,47.5,-330.48,13.5497,22.495,19.636,0.0
2856,6,47.6,-330.375,13.6163,21.995,19.136,0.0
2862,6,47.7,-330.277,13.6837,21.495,18.637,0.0
2868,6,47.8,-330.177,13.7467,20.995,18.135,0.0
2874,6,47.9,-330.078,13.8107,20.495,17.634,0.0
2880,6,48.0,-329.976,13.8713,19.995,17.134,0.0
2886,6,48.1,-329.879,13.9331,19.495,16.63,0.0
2892,6,48.2,-329.789,13.9962,18.995,16.13,0.0
2898,6,48.3,-329.696,14.0562,18.495,15.631,0.0
2904,6,48.4,-329.609,14.1205,17.995,15.13,0.0
2910,6,48.5,-329.519,14.1811,17.495,14.631,0.0
2916,6,48.6,-329.4348,14.2436,16.995,14.129,0.0
2922,6,48.7,-329.351,14.3024,16.495,13.629,0.0
2928,6,48.8,-329.269,14.3665,15.995,13.129,0.0
2934,6,48.9,-329.187,14.424,15.495,12.63,0.0
2940,6,49.0,-329.111,14.48811,14.995,12.129,0.0
2946,6,49.1,-329.032,14.54793,14.495,11.629,0.0
2952,6,49.2,-328.954,14.6082,13.995,11.128,0.0
2958,6,49.3,-328.876,14.6649,13.495,10.629,0.0
2964,6,49.4,-328.803,14.7274,12.995,10.129,0.0
2970,6,49.5,-328.7284,14.7871,12.495,9.629,0.0
2976,6,49.6,-328.653,14.84892,11.995,9.13,0.0
2982,6,49.7,-328.58,14.9069,11.495,8.63,0.0
2988,6,49.8,-328.506,14.9675,10.995,8.131,0.0
2994,6,49.9,-328.432,15.0259,10.495,7.63,0.0
3000,6,50.0,-328.36,15.0875,9.995,7.131,0.0
3006,6,50.1,-328.286,15.1488,9.495,6.631,0.0
3012,6,50.2,-328.214,15.2037,8.995,6.134,0.0
3018,6,50.3,-328.148,15.2634,8.495,5.637,0.0
3024,6,50.4,-328.077,15.3256,7.995,5.136,0.0
3030,6,50.5,-328.004,15.3818,7.495,4.638,0.0
3036,6,50.6,-327.938,15.4408,6.995,4.14,0.0
3042,6,50.7,-327.87,15.49668,6.495,3.643,0.0
3048,6,50.8,-327.805,15.5559,5.995,3.143,0.0
3054,6,50.9,-327.738,15.614,5.495,2.646,0.0
3060,6,51.0,-327.671,15.67272,4.995,2.147,0.0
3066,6,51.1,-327.604,15.7299,4.495,1.645,0.0
3072,6,51.2,-327.544,15.7882,3.995,1.145,0.0
3078,6,51.3,-327.479,15.8489,3.495,0.646,0.0
3084,6,51.4,-327.414,15.9053,2.995,0.149,0.0
3090,6,51.5,-327.348,15.9621,2.495,-0.35,0.0
3096,6,51.6,-327.285,16.0194,1.995,-0.848,0.0
3102,6,51.7,-327.219,16.07695,1.495,-1.347,0.0
3108,6,51.8,-327.156,16.1356,0.995,-1.846,0.0
3114,6,51.9,-327.094,16.18786,0.495,-2.342,0.0
3120,6,52.0,-327.03,16.2476,-0.005,-2.837,0.0
3126,6,52.1,-326.971,16.3043,-0.505,-3.334,0.0
3132,6,52.2,-326.906,16.3585,-1.005,-3.83,0.0
3138,6,52.3,-326.844,16.4145,-1.505,-4.326,0.0
3144,6,52.4,-326.782,16.4697,-2.005,-4.824,0.0
3150,6,52.5,-326.725,16.5279,-2.505,-5.319,0.0
3156,6,52.6,-326.663,16.5806,-3.005,-5.816,0.0
3162,6,52.7,-326.601,16.63905,-3.505,-6.313,0.0
3168,6,52.8,-326.541,16.6929,-4.005,-6.809,0.0
3174,6,52.9,-326.482,16.74819,-4.505,-7.307,0.0
3180,6,53.0,-326.424,16.8038,-5.005,-7.802,0.0
3186,6,53.1,-326.362,16.86,-5.505,-8.301,0.0
3192,6,53.2,-326.306,16.9141,-6.005,-8.794,0.0
3198,6,53.3,-326.243,16.9695,-6.505,-9.293,0.0
3204,6,53.4,-326.186,17.0235,-7.005,-9.789,0.0
3210,6,53.5,-326.127,17.0776,-7.505,-10.286,0.0
3216,6,53.6,-326.069,17.1284,-8.005,-10.781,0.0
3222,6,53.7,-326.011,17.18239,-8.505,-11.276,0.0
3228,6,53.8,-325.955,17.23808,-9.005,-11.771,0.0
3234,6,53.9,-325.9,17.2893,-9.505,-12.266,0.0
3240,7,54.0,-325.81,17.3321,-10.0,-12.761,0.0
3246,7,54.1,-324.853,17.3321,-10.0,-13.114,0.0
3252,7,54.2,-323.346,17.3321,-10.0,-13.203,0.0
3258,7,54.3,-322.671,17.3321,-10.0,-13.223,0.0
3264,7,54.4,-322.473,17.3321,-10.0,-13.227,0.0
3270,7,54.5,-322.421,17.3321,-10.0,-13.228,0.0
3276,7,54.6,-322.403,17.3321,-10.0,-13.228,0.0
3282,7,54.7,-322.401,17.3321,-10.0,-13.23,0.0
3288,7,54.8,-322.4,17.3321,-10.0,-13.23,0.0
3294,7,54.9,-322.399,17.3321,-10.0,-13.229,0.0
3300,7,55.0,-322.401,17.3321,-10.0,-13.228,0.0
3306,7,55.1,-322.397,17.3321,-10.0,-13.23,0.0
3312,7,55.2,-322.398,17.3321,-10.0,-13.229,0.0
3318,7,55.3,-322.399,17.3321,-10.0,-13.23,0.0
3324,7,55.4,-322.401,17.3321,-10.0,-13.23,0.0
3330,7,55.5,-322.399,17.3321,-10.0,-13.231,0.0
3336,7,55.6,-322.4,17.3321,-10.0,-13.23,0.0
3342,7,55.7,-322.399,17.3321,-10.0,-13.23,0.0
3348,7,55.8,-322.401,17.3321,-10.0,-13.232,0.0
3354,7,55.9,-322.402,17.3321,-10.0,-13.231,0.0
3360,8,56.0,-322.372,17.3321,-9.996,-13.23,0.0
3366,8,56.1,-321.401,17.602,-9.496,-13.083,0.0
3372,8,56.2,-319.934,16.9554,-8.996,-12.667,0.0
3378,8,56.3,-319.326,16.7894,-8.496,-12.185,0.0
3384,8,56.4,-319.195,16.7137,-7.996,-11.694,0.0
3390,8,56.5,-319.195,16.6624,-7.496,-11.198,0.0
3396,8,56.6,-319.239,16.6088,-6.996,-10.702,0.0
3402,8,56.7,-319.291,16.55162,-6.496,-10.203,0.0
3408,8,56.8,-319.339,16.4965,-5.996,-9.707,0.0
3414,8,56.9,-319.392,16.4404,-5.496,-9.209,0.0
3420,8,57.0,-319.444,16.3869,-4.996,-8.712,0.0
3426,8,57.1,-319.5,16.329,-4.496,-8.216,0.0
3432,8,57.2,-319.55,16.2715,-3.996,-7.717,0.0
3438,8,57.3,-319.605,16.2145,-3.496,-7.218,0.0
3444,8,57.4,-319.657,16.1584,-2.996,-6.721,0.0
3450,8,57.5,-319.713,16.1009,-2.496,-6.224,0.0
3456,8,57.6,-319.767,16.0443,-1.996,-5.726,0.0
3462,8,57.7,-319.82,15.9853,-1.496,-5.228,0.0
3468,8,57.8,-319.875,15.9277,-0.996,-4.73,0.0
3474,8,57.9,-319.929,15.8724,-0.496,-4.233,0.0
3480,8,58.0,-319.985,15.8145,0.004,-3.736,0.0
3486,8,58.1,-320.035,15.7555,0.504,-3.237,0.0
3492,8,58.2,-320.091,15.6995,1.004,-2.738,0.0
3498,8,58.3,-320.146,15.6433,1.504,-2.241,0.0
3504,8,58.4,-320.201,15.5862,2.004,-1.744,0.0
3510,8,58.5,-320.254,15.5277,2.504,-1.243,0.0
3516,8,58.6,-320.306,15.4725,3.004,-0.744,0.0
3522,8,58.7,-320.361,15.4133,3.504,-0.241,0.0
3528,8,58.8,-320.419,15.3519,4.004,0.258,0.0
3534,8,58.9,-320.471,15.2947,4.504,0.758,0.0
3540,8,59.0,-320.525,15.235,5.004,1.257,0.0
3546,8,59.1,-320.583,15.1765,5.504,1.756,0.0
3552,8,59.2,-320.64,15.11593,6.004,2.257,0.0
3558,8,59.3,-320.693,15.0596,6.504,2.754,0.0
3564,8,59.4,-320.749,14.9983,7.004,3.254,0.0
3570,8,59.5,-320.806,14.9384,7.504,3.755,0.0
3576,8,59.6,-320.861,14.8812,8.004,4.254,0.0
3582,8,59.7,-320.919,14.8226,8.504,4.753,0.0
3588,8,59.8,-320.974,14.7623,9.004,5.253,0.0
3594,8,59.9,-321.032,14.7054,9.504,5.753,0.0
3600,8,60.0,-321.089,14.6436,10.004,6.252,0.0
3606,8,60.1,-321.144,14.5864,10.504,6.751,0.0
3612,8,60.2,-321.199,14.526,11.004,7.25,0.0
3618,8,60.3,-321.255,14.4656,11.504,7.751,0.0
3624,8,60.4,-321.314,14.4041,12.004,8.254,0.0
3630,8,60.5,-321.369,14.3406,12.504,8.753,0.0
3636,8,60.6,-321.425,14.2819,13.004,9.255,0.0
3642,8,60.7,-321.484,14.2205,13.504,9.755,0.0
3648,8,60.8,-321.541,14.1577,14.004,10.256,0.0
3654,8,60.9,-321.601,14.09851,14.504,10.757,0.0
3660,8,61.0,-321.658,14.0376,15.004,11.257,0.0
3666,8,61.1,-321.714,13.9749,15.504,11.759,0.0
3672,8,61.2,-321.775,13.9143,16.004,12.26,0.0
3678,8,61.3,-321.834,13.8544,16.504,12.762,0.0
3684,8,61.4,-321.893,13.7947,17.004,13.262,0.0
3690,8,61.5,-321.947,13.7316,17.504,13.762,0.0
3696,8,61.6,-322.005,13.6688,18.004,14.263,0.0
3702,8,61.7,-322.067,13.6106,18.504,14.764,0.0
3708,8,61.8,-322.125,13.54349,19.004,15.265,0.0
3714,8,61.9,-322.182,13.4817,19.504,15.765,0.0
3720,8,62.0,-322.241,13.4226,20.004,16.267,0.0
3726,8,62.1,-322.3,13.3562,20.504,16.77,0.0
3732,8,62.2,-322.362,13.2957,21.004,17.269,0.0
3738,8,62.3,-322.419,13.2309,21.504,17.773,0.0
3744,8,62.4,-322.478,13.1685,22.004,18.276,0.0
3750,8,62.5,-322.54,13.1054,22.504,18.78,0.0
3756,8,62.6,-322.614,13.0352,23.004,19.281,0.0
3762,8,62.7,-322.693,12.9915,23.504,19.776,0.0
3768,8,62.8,-322.742,12.9235,24.004,20.274,0.0
3774,8,62.9,-322.786,12.85408,24.504,20.777,0.0
3780,8,63.0,-322.841,12.7936,25.004,21.277,0.0
3786,8,63.1,-322.9,12.7278,25.504,21.779,0.0
3792,8,63.2,-322.957,12.6668,26.004,22.283,0.0
3798,8,63.3,-323.0195,12.6019,26.504,22.785,0.0
3804,8,63.4,-323.078,12.5388,27.004,23.286,0.0
3810,8,63.5,-323.141,12.4734,27.504,23.787,0.0
3816,8,63.6,-323.197,12.4064,28.004,24.29,0.0
3822,8,63.7,-323.261,12.3434,28.504,24.793,0.0
3828,8,63.8,-323.322,12.2805,29.004,25.295,0.0
3834,8,63.9,-323.384,12.2139,29.504,25.797,0.0
3840,8,64.0,-323.446,12.1466,30.004,26.3,0.0
3846,8,64.1,-323.505,12.0809,30.504,26.804,0.0
3852,8,64.2,-323.57,12.0152,31.004,27.309,0.0
3858,8,64.3,-323.631,11.9498,31.504,27.811,0.0
3864,8,64.4,-323.691,11.88716,32.004,28.313,0.0
3870,8,64.5,-323.752,11.8188,32.504,28.816,0.0
3876,8,64.6,-323.817,11.7568,33.004,29.32,0.0
3882,8,64.7,-323.877,11.6893,33.504,29.822,0.0
3888,8,64.8,-323.937,11.6253,34.004,30.325,0.0
3894,8,64.9,-323.996,11.5581,34.504,30.83,0.0
3900,8,65.0,-324.061,11.49343,35.004,31.333,0.0
3906,8,65.1,-324.124,11.4248,35.504,31.836,0.0
3912,8,65.2,-324.186,11.3593,36.004,32.339,0.0
3918,8,65.3,-324.243,11.2903,36.504,32.843,0.0
3924,8,65.4,-324.308,11.2215,37.004,33.346,0.0
3930,8,65.5,-324.372,11.1576,37.504,33.849,0.0
3936,8,65.6,-324.433,11.0885,38.004,34.353,0.0
3942,8,65.7,-324.494,11.0206,38.504,34.857,0.0
3948,8,65.8,-324.557,10.951,39.004,35.362,0.0
3954,8,65.9,-324.621,10.8856,39.504,35.866,0.0
3960,8,66.0,-324.682,10.8198,40.004,36.371,0.0
3966,8,66.1,-324.742,10.7507,40.504,36.876,0.0
3972,8,66.2,-324.804,10.6831,41.004,37.384,0.0
3978,8,66.3,-324.869,10.6131,41.504,37.89,0.0
3984,8,66.4,-324.929,10.5481,42.004,38.393,0.0
3990,8,66.5,-324.989,10.4811,42.504,38.899,0.0
3996,8,66.6,-325.047,10.4115,43.004,39.405,0.0
4002,8,66.7,-325.108,10.3435,43.504,39.908,0.0
4008,8,66.8,-325.169,10.2746,44.004,40.413,0.0
4014,8,66.9,-325.229,10.2055,44.504,40.916,0.0
4020,8,67.0,-325.288,10.1349,45.004,41.422,0.0
4026,8,67.1,-325.343,10.0632,45.504,41.926,0.0
4032,8,67.2,-325.405,9.995087,46.004,42.432,0.0
4038,8,67.3,-325.464,9.926536,46.504,42.937,0.0
4044,8,67.4,-325.521,9.857748,47.004,43.442,0.0
4050,8,67.5,-325.573,9.784123,47.504,43.948,0.0
4056,8,67.6,-325.634,9.716869,48.004,44.454,0.0
4062,8,67.7,-325.686,9.648554,48.504,44.961,0.0
4068,8,67.8,-325.739,9.580356,49.004,45.466,0.0
4074,8,67.9,-325.791,9.507203,49.504,45.973,0.0
4080,8,68.0,-325.839,9.437235,50.004,46.477,0.0
4086,8,68.1,-325.885,9.369863,50.504,46.984,0.0
4092,8,68.2,-325.923,9.298244,51.004,47.49,0.0
4098,8,68.3,-325.967,9.227215,51.504,47.996,0.0
4104,8,68.4,-325.998,9.155831,52.004,48.502,0.0
4110,8,68.5,-326.032,9.082796,52.504,49.009,0.0
4116,8,68.6,-326.057,9.013183,53.004,49.515,0.0
4122,8,68.7,-326.074,8.940147,53.504,50.021,0.0
4128,8,68.8,-326.084,8.866876,54.004,50.527,0.0
4134,8,68.9,-326.091,8.794077,54.504,51.033,0.0
4140,8,69.0,-326.08,8.71939,55.004,51.54,0.0
4146,8,69.1,-326.058,8.647889,55.504,52.047,0.0
4152,8,69.2,-326.018,8.574499,56.004,52.552,0.0
4158,8,69.3,-325.96,8.501818,56.504,53.06,0.0
4164,8,69.4,-325.879,8.427603,57.004,53.567,0.0
4170,8,69.5,-325.777,8.354568,57.504,54.073,0.0
4176,8,69.6,-325.644,8.280943,58.004,54.579,0.0
4182,8,69.7,-325.474,8.208143,58.504,55.086,0.0
4188,8,69.8,-325.264,8.1403,59.004,55.592,0.0
4194,8,69.9,-325.007,8.059359,59.504,56.099,0.0
4200,8,70.0,-324.688,7.985498,60.004,56.608,0.0
4206,8,70.1,-324.308,7.913171,60.504,57.113,0.0
4212,8,70.2,-323.865,7.834472,61.004,57.621,0.0
4218,8,70.3,-323.365,7.762145,61.504,58.126,0.0
4224,8,70.4,-322.804,7.684272,62.004,58.631,0.0
4230,8,70.5,-322.208,7.612063,62.504,59.136,0.0
4236,8,70.6,-321.578,7.532656,63.004,59.64,0.0
4242,8,70.7,-320.952,7.466228,63.504,60.146,0.0
4248,8,70.8,-320.349,7.390361,64.004,60.649,0.0
4254,8,70.9,-319.804,7.312371,64.504,61.156,0.0
4260,8,71.0,-319.358,7.235088,65.004,61.661,0.0
4266,8,71.1,-319.034,7.163586,65.504,62.168,0.0
4272,8,71.2,-318.861,7.088191,66.004,62.675,0.0
4278,8,71.3,-318.835,7.013032,66.504,63.183,0.0
4284,8,71.4,-318.97,6.935042,67.004,63.69,0.0
4290,8,71.5,-319.248,6.858349,67.504,64.196,0.0
4296,8,71.6,-319.63,6.784724,68.004,64.705,0.0
4302,8,71.7,-320.1,6.703193,68.504,65.212,0.0
4308,8,71.8,-320.604,6.626854,69.004,65.721,0.0
4314,8,71.9,-321.117,6.551813,69.504,66.229,0.0
4320,8,72.0,-321.627,6.473115,70.004,66.736,0.0
4326,8,72.1,-322.099,6.398781,70.504,67.243,0.0
4332,8,72.2,-322.527,6.32374,71.004,67.75,0.0
4338,8,72.3,-322.904,6.244806,71.504,68.258,0.0
4344,8,72.4,-323.233,6.167877,72.004,68.765,0.0
4350,8,72.5,-323.51,6.092482,72.504,69.271,0.0
4356,8,72.6,-323.745,6.015789,73.004,69.778,0.0
4362,8,72.7,-323.946,5.936028,73.504,70.285,0.0
4368,8,72.8,-324.107,5.860633,74.004,70.792,0.0
4374,8,72.9,-324.236,5.780755,74.504,71.299,0.0
4380,8,73.0,-324.344,5.705124,75.004,71.807,0.0
4386,8,73.1,-324.427,5.625953,75.504,72.315,0.0
4392,8,73.2,-324.497,5.549142,76.004,72.821,0.0
4398,8,73.3,-324.559,5.47068,76.504,73.327,0.0
4404,8,73.4,-324.611,5.389503,77.004,73.835,0.0
4410,8,73.5,-324.681,5.307855,77.504,74.343,0.0
4416,8,73.6,-324.774,5.23187,78.004,74.848,0.0
4422,8,73.7,-324.901,5.152345,78.504,75.356,0.0
4428,8,73.8,-325.065,5.076714,79.004,75.867,0.0
4434,8,73.9,-325.264,4.993414,79.504,76.373,0.0
4440,8,74.0,-325.503,4.917547,80.004,76.88,0.0
4446,8,74.1,-325.784,4.838022,80.504,77.387,0.0
4452,8,74.2,-326.082,4.758498,81.004,77.894,0.0
4458,8,74.3,-326.393,4.676024,81.504,78.401,0.0
4464,8,74.4,-326.719,4.598033,82.004,78.908,0.0
4470,8,74.5,-327.041,4.519334,82.504,79.414,0.0
4476,8,74.6,-327.35,4.439927,83.004,79.921,0.0
4482,8,74.7,-327.643,4.359577,83.504,80.428,0.0
4488,8,74.8,-327.913,4.280642,84.004,80.936,0.0
4494,8,74.9,-328.161,4.197224,84.504,81.442,0.0
4500,8,75.0,-328.394,4.118171,85.004,81.948,0.0
4506,8,75.1,-328.604,4.038883,85.504,82.456,0.0
4512,8,75.2,-328.795,3.960066,86.004,82.963,0.0
4518,8,75.3,-328.983,3.876412,86.504,83.469,0.0
4524,8,75.4,-329.153,3.793584,87.004,83.975,0.0
4530,8,75.5,-329.315,3.712171,87.504,84.481,0.0
4536,8,75.6,-329.479,3.632293,88.004,84.989,0.0
4542,8,75.7,-329.635,3.5556,88.504,85.494,0.0
4548,8,75.8,-329.786,3.46876,89.004,86.0,0.0
4554,8,75.9,-329.93,3.386875,89.504,86.506,0.0
4560,8,76.0,-330.083,3.305935,90.004,87.012,0.0
4566,8,76.1,-330.24,3.225702,90.504,87.519,0.0
4572,8,76.2,-330.406,3.142166,91.004,88.024,0.0
4578,8,76.3,-330.574,3.061344,91.504,88.531,0.0
4584,8,76.4,-330.747,2.979105,92.004,89.037,0.0
4590,8,76.5,-330.948,2.894507,92.504,89.545,0.0
4596,8,76.6,-331.155,2.811679,93.004,90.053,0.0
4602,8,76.7,-331.362,2.728614,93.504,90.558,0.0
4608,8,76.8,-331.568,2.646966,94.004,91.066,0.0
4614,8,76.9,-331.772,2.5652,94.504,91.572,0.0
4620,8,77.0,-331.973,2.481427,95.004,92.078,0.0
4626,8,77.1,-332.176,2.395059,95.504,92.584,0.0
4632,8,77.2,-332.379,2.314119,96.004,93.091,0.0
4638,8,77.3,-332.571,2.232943,96.504,93.596,0.0
4644,8,77.4,-332.754,2.150586,97.004,94.102,0.0
4650,8,77.5,-332.928,2.066696,97.504,94.607,0.0
4656,8,77.6,-333.084,1.98139,98.004,95.116,0.0
4662,8,77.7,-333.224,1.89927,98.504,95.622,0.0
4668,8,77.8,-333.359,1.814553,99.004,96.128,0.0
4674,8,77.9,-333.495,1.732787,99.504,96.633,0.0
4680,8,78.0,-333.611,1.649015,100.004,97.138,0.0
4686,8,78.1,-333.728,1.563591,100.504,97.644,0.0
4692,8,78.2,-333.835,1.476987,101.004,98.148,0.0
4698,8,78.3,-333.946,1.39463,101.504,98.654,0.0
4704,8,78.4,-334.047,1.304841,102.004,99.16,0.0
4710,8,78.5,-334.148,1.225434,102.504,99.665,0.0
4716,8,78.6,-334.245,1.134583,103.004,100.172,0.0
4722,8,78.7,-334.343,1.05435,103.504,100.678,0.0
4728,8,78.8,-334.436,0.970932,104.004,101.184,0.0
4734,8,78.9,-334.536,0.885154,104.504,101.691,0.0
4740,8,79.0,-334.627,0.796544,105.004,102.195,0.0
4746,8,79.1,-334.72,0.712182,105.504,102.701,0.0
4752,8,79.2,-334.812,0.629707,106.004,103.207,0.0
4758,8,79.3,-334.899,0.537086,106.504,103.711,0.0
4764,8,79.4,-334.988,0.460629,107.004,104.217,0.0
4770,8,79.5,-335.076,0.36907,107.504,104.722,0.0
4776,8,79.6,-335.166,0.283882,108.004,105.228,0.0
4782,8,79.7,-335.255,0.197278,108.504,105.732,0.0
4788,8,79.8,-335.344,0.108786,109.004,106.238,0.0
4794,8,79.9,-335.434,0.022536,109.504,106.742,0.0
4800,8,80.0,-335.524,-0.065366,110.004,107.246,0.0
4806,8,80.1,-335.614,-0.151852,110.504,107.752,0.0
4812,8,80.2,-335.702,-0.237866,111.004,108.259,0.0
4818,8,80.3,-335.789,-0.321756,111.504,108.764,0.0
4824,8,80.4,-335.877,-0.413316,112.004,109.271,0.0
4830,8,80.5,-335.961,-0.499802,112.504,109.776,0.0
4836,8,80.6,-336.05,-0.584872,113.004,110.282,0.0
4842,8,80.7,-336.137,-0.667818,113.504,110.788,0.0
4848,8,80.8,-336.228,-0.75572,114.004,111.293,0.0
4854,8,80.9,-336.312,-0.845863,114.504,111.798,0.0
4860,8,81.0,-336.397,-0.933883,115.004,112.304,0.0
4866,8,81.1,-336.482,-1.022021,115.504,112.808,0.0
4872,8,81.2,-336.566,-1.112755,116.004,113.315,0.0
4878,8,81.3,-336.656,-1.199595,116.504,113.82,0.0
4884,8,81.4,-336.742,-1.290564,117.004,114.33,0.0
4890,8,81.5,-336.825,-1.375516,117.504,114.836,0.0
4896,8,81.6,-336.91,-1.466722,118.004,115.339,0.0
4902,8,81.7,-337.005,-1.555803,118.504,115.843,0.0
4908,8,81.8,-337.089,-1.644295,119.004,116.347,0.0
4914,8,81.9,-337.176,-1.731725,119.504,116.853,0.0
4920,8,82.0,-337.262,-1.820807,120.004,117.36,0.0
4926,8,82.1,-337.352,-1.909417,120.504,117.866,0.0
4932,8,82.2,-337.442,-1.996493,121.004,118.371,0.0
4938,8,82.3,-337.526,-2.086754,121.504,118.877,0.0
4944,8,82.4,-337.614,-2.176662,122.004,119.381,0.0
4950,8,82.5,-337.708,-2.26126,122.504,119.887,0.0
4956,8,82.6,-337.8,-2.355533,123.004,120.391,0.0
4962,8,82.7,-337.888,-2.446975,123.504,120.897,0.0
4968,8,82.8,-337.972,-2.538062,124.004,121.402,0.0
4974,8,82.9,-338.063,-2.627026,124.504,121.905,0.0
4980,8,83.0,-338.152,-2.717877,125.004,122.411,0.0
4986,8,83.1,-338.244,-2.810735,125.504,122.916,0.0
4992,8,83.2,-338.332,-2.899227,126.004,123.42,0.0
4998,8,83.3,-338.428,-2.99173,126.504,123.925,0.0
5004,8,83.4,-338.521,-3.07798,127.004,124.43,0.0
5010,8,83.5,-338.608,-3.170955,127.504,124.933,0.0
5016,8,83.6,-338.701,-3.257205,128.004,125.438,0.0
5022,8,83.7,-338.79,-3.352776,128.504,125.942,0.0
5028,8,83.8,-338.88,-3.43938,129.004,126.448,0.0
5034,8,83.9,-338.97,-3.53094,129.504,126.955,0.0
5040,8,84.0,-339.062,-3.623207,130.004,127.46,0.0
5046,8,84.1,-339.154,-3.711463,130.504,127.965,0.0
5052,8,84.2,-339.248,-3.802787,131.004,128.471,0.0
5058,8,84.3,-339.338,-3.896824,131.504,128.975,0.0
5064,8,84.4,-339.429,-3.984136,132.004,129.481,0.0
5070,8,84.5,-339.521,-4.078763,132.504,129.985,0.0
5076,8,84.6,-339.611,-4.17339,133.004,130.491,0.0
5082,8,84.7,-339.704,-4.266366,133.504,130.996,0.0
5088,8,84.8,-339.794,-4.356509,134.004,131.501,0.0
5094,8,84.9,-339.888,-4.448777,134.504,132.006,0.0
5100,8,85.0,-339.977,-4.53774,135.004,132.508,0.0
5106,8,85.1,-340.074,-4.631896,135.504,133.017,0.0
5112,8,85.2,-340.161,-4.726641,136.004,133.522,0.0
5118,8,85.3,-340.254,-4.818082,136.504,134.026,0.0
5124,8,85.4,-340.348,-4.90504,137.004,134.532,0.0
5130,8,85.5,-340.434,-5.004387,137.504,135.037,0.0
5136,8,85.6,-340.531,-5.097362,138.004,135.541,0.0
5142,8,85.7,-340.622,-5.188804,138.504,136.046,0.0
5148,8,85.8,-340.722,-5.278004,139.004,136.551,0.0
5154,8,85.9,-340.813,-5.370861,139.504,137.056,0.0
5160,8,86.0,-340.902,-5.464072,140.004,137.561,0.0
5166,8,86.1,-340.9969,-5.560233,140.504,138.067,0.0
5172,8,86.2,-341.088,-5.656984,141.004,138.573,0.0
5178,8,86.3,-341.182,-5.749016,141.504,139.077,0.0
5184,8,86.4,-341.275,-5.839277,142.004,139.583,0.0
5190,8,86.5,-341.369,-5.936854,142.504,140.088,0.0
5196,8,86.6,-341.461,-6.02865,143.004,140.593,0.0
5202,8,86.7,-341.557,-6.127643,143.504,141.097,0.0
5208,8,86.8,-341.652,-6.217904,144.004,141.602,0.0
5214,8,86.9,-341.753,-6.313475,144.504,142.107,0.0
5220,8,87.0,-341.843,-6.400905,145.004,142.61,0.0
5226,8,87.1,-341.926,-6.500488,145.504,143.115,0.0
5232,8,87.2,-342.028,-6.596649,146.004,143.619,0.0
5238,8,87.3,-342.121,-6.690214,146.504,144.125,0.0
5244,8,87.4,-342.208,-6.785786,147.004,144.63,0.0
5250,8,87.5,-342.312,-6.880059,147.504,145.134,0.0
5256,8,87.6,-342.404,-6.976692,148.004,145.638,0.0
5262,8,87.7,-342.503,-7.074977,148.504,146.143,0.0
5268,8,87.8,-342.599,-7.167126,149.004,146.648,0.0
5274,8,87.9,-342.694,-7.266119,149.504,147.153,0.0
5279,8,87.9833,-342.771,-7.343402,149.92,147.575,0.0